Folder: liionpack/Testing PyBaMM

File: theo_cycle.csv
Timestamp,Connection,Uptime,Status,IO State,SoC [%],Pack Voltage [V],Pack Current [A],Max. Cell Voltage [mV],Min. Cell Voltage [mV],Max. Cell Temperature [C],Min. Cell Temperature [C],MCU AUX temperature sensor 1 [C],MCU AUX temperature sensor 2 [C],MCU AUX temperature sensor 3 [C],MCU AUX temperature sensor 4 [C],MCU AUX temperature sensor 5 [C],MCU AUX temperature sensor 6 [C],MCU AUX temperature sensor 7 [C],MCU AUX temperature sensor 8 [C],Dynamic Current IN limit [A],Dynamic Current OUT limit [A],Requested Charge Current [A],Charge complete? (latched) [],Remaining Battery Pack Capacity [As],Battery Pack Capacity [Ah],State of Health [%],Alarm Entry 1,Alarm Entry 2,Alarm Entry 3,Alarm Entry 4,Alarm Entry 5,Alarm Entry 6,Alarm Entry 7,Alarm Entry 8,CMU: 1 Cell: 1 (Pack 1) [mV],CMU: 1 Cell: 2 (Pack 2) [mV],CMU: 1 Cell: 3 (Pack 3) [mV],CMU: 1 Cell: 4 (Pack 4) [mV],CMU: 1 Cell: 5 (Pack 5) [mV],CMU: 1 Cell: 6 (Pack 6) [mV],CMU: 1 Cell: 7 (Pack 7) [mV],CMU: 1 Cell: 8 (Pack 8) [mV],CMU: 1 Cell: 9 (Pack 9) [mV],CMU: 1 Cell: 10 (Pack 10) [mV],CMU: 1 Cell: 11 (Pack 11) [mV],CMU: 1 Cell: 12 (Pack 12) [mV],CMU: 1 Cell: 13 (Pack 13) [mV],CMU: 1 Cell: 14 (Pack 14) [mV],CMU: 1 Cell: 15 (Pack 15) [mV],CMU: 1 Cell: 16 (Pack 16) [mV],CMU: 1 Cell: 17 (Pack 17) [mV],CMU: 1 Cell: 18 (Pack 18) [mV],CMU: 2 Cell: 1 (Pack 19) [mV],CMU: 2 Cell: 2 (Pack 20) [mV],CMU: 2 Cell: 3 (Pack 21) [mV],CMU: 2 Cell: 4 (Pack 22) [mV],CMU: 2 Cell: 5 (Pack 23) [mV],CMU: 2 Cell: 6 (Pack 24) [mV],CMU: 2 Cell: 7 (Pack 25) [mV],CMU: 2 Cell: 8 (Pack 26) [mV],CMU: 2 Cell: 9 (Pack 27) [mV],CMU: 2 Cell: 10 (Pack 28) [mV],CMU: 2 Cell: 11 (Pack 29) [mV],CMU: 2 Cell: 12 (Pack 30) [mV],CMU: 2 Cell: 13 (Pack 31) [mV],CMU: 2 Cell: 14 (Pack 32) [mV],CMU: 2 Cell: 15 (Pack 33) [mV],CMU: 2 Cell: 16 (Pack 34) [mV],CMU: 2 Cell: 17 (Pack 35) [mV],CMU: 2 Cell: 18 (Pack 36) [mV],CMU: 3 Cell: 1 (Pack 37) [mV],CMU: 3 Cell: 2 (Pack 38) [mV],CMU: 3 Cell: 3 (Pack 39) [mV],CMU: 3 Cell: 4 (Pack 40) [mV],CMU: 3 Cell: 5 (Pack 41) [mV],CMU: 3 Cell: 6 (Pack 42) [mV],CMU: 3 Cell: 7 (Pack 43) [mV],CMU: 3 Cell: 8 (Pack 44) [mV],CMU: 3 Cell: 9 (Pack 45) [mV],CMU: 3 Cell: 10 (Pack 46) [mV],CMU: 3 Cell: 11 (Pack 47) [mV],CMU: 3 Cell: 12 (Pack 48) [mV],CMU: 3 Cell: 13 (Pack 49) [mV],CMU: 3 Cell: 14 (Pack 50) [mV],CMU: 3 Cell: 15 (Pack 51) [mV],CMU: 3 Cell: 16 (Pack 52) [mV],CMU: 3 Cell: 17 (Pack 53) [mV],CMU: 3 Cell: 18 (Pack 54) [mV],Balancing Cells CMU #1,Balancing Cells CMU #2,Balancing Cells CMU #3,CMU: 1 Channel: 1 (Pack 1) [C],CMU: 1 Channel: 2 (Pack 2) [C],CMU: 1 Channel: 3 (Pack 3) [C],CMU: 1 Channel: 4 (Pack 4) [C],CMU: 1 Channel: 5 (Pack 5) [C],CMU: 1 Channel: 6 (Pack 6) [C],CMU: 1 Channel: 7 (Pack 7) [C],CMU: 1 Channel: 8 (Pack 8) [C],CMU: 1 Channel: 9 (Pack 9) [C],CMU: 1 Channel: 10 (Pack 10) [C],CMU: 1 Channel: 11 (Pack 11) [C],CMU: 1 Channel: 12 (Pack 12) [C],CMU: 1 PCB: 1 [C],CMU: 1 PCB: 2 [C],CMU: 2 Channel: 1 (Pack 13) [C],CMU: 2 Channel: 2 (Pack 14) [C],CMU: 2 Channel: 3 (Pack 15) [C],CMU: 2 Channel: 4 (Pack 16) [C],CMU: 2 Channel: 5 (Pack 17) [C],CMU: 2 Channel: 6 (Pack 18) [C],CMU: 2 Channel: 7 (Pack 19) [C],CMU: 2 Channel: 8 (Pack 20) [C],CMU: 2 Channel: 9 (Pack 21) [C],CMU: 2 Channel: 10 (Pack 22) [C],CMU: 2 Channel: 11 (Pack 23) [C],CMU: 2 Channel: 12 (Pack 24) [C],CMU: 2 PCB: 1 [C],CMU: 2 PCB: 2 [C],CMU: 3 Channel: 1 (Pack 25) [C],CMU: 3 Channel: 2 (Pack 26) [C],CMU: 3 Channel: 3 (Pack 27) [C],CMU: 3 Channel: 4 (Pack 28) [C],CMU: 3 Channel: 5 (Pack 29) [C],CMU: 3 Channel: 6 (Pack 30) [C],CMU: 3 Channel: 7 (Pack 31) [C],CMU: 3 Channel: 8 (Pack 32) [C],CMU: 3 Channel: 9 (Pack 33) [C],CMU: 3 Channel: 10 (Pack 34) [C],CMU: 3 Channel: 11 (Pack 35) [C],CMU: 3 Channel: 12 (Pack 36) [C],CMU: 3 PCB: 1 [C],CMU: 3 PCB: 2 [C],Custom Data # 1 (ID_47_FLAGS_FULLY_CHARGED) [],Custom Data # 2 (ID_48_FLAGS_FULLY_CHARGED_LATCHED) [],Custom Data # 3 () [],Custom Data # 4 () [],Custom Data # 5 () [],Custom Data # 6 () [],Custom Data # 7 () [],Custom Data # 8 () []
2021-10-13 13:30:23,GOOD,0d 0h 37m 45s,ACTIVE,514,6.85,150.1,0,4185.4,4160.7,24,23,OC,OC,OC,OC,OC,OC,OC,OC,410.4,624.6,0,FALSE,28533,115.6,100,,,,,,,,,4169.4,4164.9,4162.4,4161.6,4160.6,4162,4163.1,4163.4,4163.5,4161.8,4161.3,4168.3,N/A,N/A,N/A,N/A,N/A,N/A,4169.9,4165.2,4167.8,4166.9,4164,4163.6,4167.5,4167.5,4167,4164.7,4165.7,4172.5,N/A,N/A,N/A,N/A,N/A,N/A,4185.4,4177.5,4176.7,4174.9,4176.8,4177.7,4177.3,4178.3,4180.9,4174.6,4176,4183.8,N/A,N/A,N/A,N/A,N/A,N/A,0,0,0,23,23,23,23,OC,OC,OC,OC,OC,OC,OC,OC,26,25,24,23,24,24,OC,OC,OC,OC,OC,OC,OC,OC,26,25,24,23,24,24,OC,OC,OC,OC,OC,OC,OC,OC,24,24,0,0,,,,,,
2021-10-13 13:32:51,GOOD,0d 0h 40m 14s,ACTIVE,514,5.26,146.4,-90.4,4087,4055.5,24,23,OC,OC,OC,OC,OC,OC,OC,OC,410.4,624.6,0,FALSE,22127,115.6,100,,,,,,,,,4065.3,4062.6,4060.9,4061,4064.9,4063.7,4059.8,4061.4,4062.7,4061,4067.7,4073.9,N/A,N/A,N/A,N/A,N/A,N/A,4072,4070.3,4074.9,4071.3,4064.9,4064.3,4070,4073,4071.6,4066.9,4065.5,4074.6,N/A,N/A,N/A,N/A,N/A,N/A,4082.8,4075.5,4073,4071.8,4073.7,4075.6,4074.1,4075.8,4078.1,4070.1,4073.2,4083.9,N/A,N/A,N/A,N/A,N/A,N/A,0,0,0,23,23,23,23,OC,OC,OC,OC,OC,OC,OC,OC,26,25,24,24,24,24,OC,OC,OC,OC,OC,OC,OC,OC,26,25,24,24,24,24,OC,OC,OC,OC,OC,OC,OC,OC,25,24,0,0,,,,,,
2021-10-13 13:35:20,GOOD,0d 0h 42m 41s,ACTIVE,514,2.07,144.9,-91.1,4041.5,4013.1,24,23,OC,OC,OC,OC,OC,OC,OC,OC,410.4,624.6,8.7,FALSE,8702,115.6,100,,,,,,,,,4018.6,4016.5,4011.6,4009.1,4010.1,4009.8,4012.9,4014.4,4012.2,4008.3,4012.2,4020.4,N/A,N/A,N/A,N/A,N/A,N/A,4017.5,4015.1,4018.1,4020.7,4016.6,4018.1,4015.2,4016.4,4013.8,4016.8,4018.5,4027.9,N/A,N/A,N/A,N/A,N/A,N/A,4036.8,4031.6,4030.5,4033.3,4034.5,4034.2,4028.7,4031.9,4036.3,4030.3,4034.4,4041.6,N/A,N/A,N/A,N/A,N/A,N/A,0,0,0,23,23,23,23,OC,OC,OC,OC,OC,OC,OC,OC,26,25,24,24,24,24,OC,OC,OC,OC,OC,OC,OC,OC,26,25,24,24,24,24,OC,OC,OC,OC,OC,OC,OC,OC,25,24,0,0,,,,,,
2021-10-13 13:37:49,GOOD,0d 0h 45m 11s,ACTIVE,514,0,143.4,-90.4,3999.5,3973.2,25,23,OC,OC,OC,OC,OC,OC,OC,OC,410.4,624.6,45.4,FALSE,-4768,115.6,100,,,,,,,,,3981,3979.1,3979,3976.3,3976.4,3974.7,3976.2,3977,3981,3975.7,3978.4,3985.3,N/A,N/A,N/A,N/A,N/A,N/A,3979.2,3978.1,3981.9,3986.4,3979.3,3979.1,3977,3979.3,3977.6,3982.1,3980.9,3988.9,N/A,N/A,N/A,N/A,N/A,N/A,4000.7,3996.1,3995.5,3989.6,3988.7,3989.5,3992.9,3996.3,4001.2,3987.4,3988.1,3997.4,N/A,N/A,N/A,N/A,N/A,N/A,0,0,0,24,23,24,24,OC,OC,OC,OC,OC,OC,OC,OC,26,25,25,25,25,25,OC,OC,OC,OC,OC,OC,OC,OC,26,25,25,25,25,25,OC,OC,OC,OC,OC,OC,OC,OC,25,24,0,0,,,,,,
2021-10-13 13:40:18,GOOD,0d 0h 47m 39s,ACTIVE,514,0,141.8,-90.3,3955.7,3927.2,26,24,OC,OC,OC,OC,OC,OC,OC,OC,416.2,628.2,82.6,FALSE,-18184,115.6,100,,,,,,,,,3942.7,3940.6,3934.7,3929.7,3929.6,3929.3,3937.6,3938.5,3935.9,3929.3,3931.5,3940.1,N/A,N/A,N/A,N/A,N/A,N/A,3946.9,3946.3,3946.8,3943.4,3936.3,3936.1,3944.9,3946.9,3942.2,3939.3,3937.6,3946.1,N/A,N/A,N/A,N/A,N/A,N/A,3964.1,3956.9,3952.8,3947,3946.3,3947.3,3956.5,3956.8,3957.7,3945.1,3945.6,3955.3,N/A,N/A,N/A,N/A,N/A,N/A,0,0,0,24,24,24,24,OC,OC,OC,OC,OC,OC,OC,OC,26,25,26,25,25,25,OC,OC,OC,OC,OC,OC,OC,OC,26,25,25,25,26,25,OC,OC,OC,OC,OC,OC,OC,OC,25,24,0,0,,,,,,
2021-10-13 13:42:47,GOOD,0d 0h 50m 9s,ACTIVE,514,0,140.4,-89.9,3915.9,3888.9,26,24,OC,OC,OC,OC,OC,OC,OC,OC,416.2,628.2,90,FALSE,-31488,115.6,100,,,,,,,,,3901.9,3900.9,3900.1,3899.3,3904.7,3900.7,3897.9,3898.5,3901.9,3898.4,3907.1,3910.3,N/A,N/A,N/A,N/A,N/A,N/A,3899.1,3897.6,3900.4,3904.1,3900.3,3901.9,3896.7,3898.9,3896.2,3899.7,3901.7,3910.1,N/A,N/A,N/A,N/A,N/A,N/A,3914.1,3908.6,3905.9,3905.1,3906.6,3909,3906.2,3908.9,3911,3903.2,3906.6,3915.8,N/A,N/A,N/A,N/A,N/A,N/A,0,0,0,25,24,24,25,OC,OC,OC,OC,OC,OC,OC,OC,26,25,26,26,26,26,OC,OC,OC,OC,OC,OC,OC,OC,26,26,26,26,26,26,OC,OC,OC,OC,OC,OC,OC,OC,25,24,0,0,,,,,,
2021-10-13 13:45:15,GOOD,0d 0h 52m 38s,ACTIVE,514,0,139.1,-89.2,3877.9,3852.5,27,25,OC,OC,OC,OC,OC,OC,OC,OC,422.1,631.7,90,FALSE,-44920,115.6,100,,,,,,,,,3871.7,3870.4,3866.5,3859.8,3859.8,3858.8,3868.3,3867.7,3867.1,3858.5,3860.7,3868,N/A,N/A,N/A,N/A,N/A,N/A,3862.4,3860.7,3862.7,3865.4,3861.2,3862.6,3859.8,3862.3,3859,3861.9,3863.5,3872,N/A,N/A,N/A,N/A,N/A,N/A,3880.7,3876.8,3875.5,3877.9,3880.4,3880.5,3873.7,3877.6,3881.6,3876.6,3879.6,3885.7,N/A,N/A,N/A,N/A,N/A,N/A,0,0,0,25,25,25,25,OC,OC,OC,OC,OC,OC,OC,OC,26,25,27,26,27,27,OC,OC,OC,OC,OC,OC,OC,OC,26,26,26,26,27,27,OC,OC,OC,OC,OC,OC,OC,OC,25,24,0,0,,,,,,
2021-10-13 13:47:44,GOOD,0d 0h 55m 6s,ACTIVE,514,0,137.8,-89.7,3843.6,3817.4,27,25,OC,OC,OC,OC,OC,OC,OC,OC,422.1,631.7,90,FALSE,-58346,115.6,100,,,,,,,,,3830.8,3829.9,3824.2,3819.7,3821.1,3820.2,3826.5,3828.5,3826.4,3819.6,3822.8,3830.3,N/A,N/A,N/A,N/A,N/A,N/A,3832.1,3831.8,3834.8,3836.2,3829.4,3829.3,3829.6,3831,3829.5,3833.5,3831.6,3838.5,N/A,N/A,N/A,N/A,N/A,N/A,3840.9,3836.5,3834.3,3834.9,3836.8,3839.2,3834.1,3836.3,3838.7,3832.1,3836.1,3843.8,N/A,N/A,N/A,N/A,N/A,N/A,0,0,0,25,25,25,25,OC,OC,OC,OC,OC,OC,OC,OC,26,25,27,27,27,27,OC,OC,OC,OC,OC,OC,OC,OC,27,26,27,27,27,27,OC,OC,OC,OC,OC,OC,OC,OC,25,24,0,0,,,,,,
2021-10-13 13:50:12,GOOD,0d 0h 57m 35s,ACTIVE,514,0,136.7,-90,3813,3787.3,28,26,OC,OC,OC,OC,OC,OC,OC,OC,427.9,635.3,90,FALSE,-71657,115.6,100,,,,,,,,,3797.4,3797.1,3797.6,3789.4,3790.1,3788.5,3794.5,3793.9,3799.8,3789.8,3793,3799,N/A,N/A,N/A,N/A,N/A,N/A,3795.1,3794.9,3797.5,3801.6,3794.6,3794.4,3792.7,3795,3793.5,3797.3,3795.5,3802.4,N/A,N/A,N/A,N/A,N/A,N/A,3815.2,3812.1,3808.1,3802.6,3801.4,3802.2,3808.9,3811.6,3813.4,3801.2,3801.9,3809.4,N/A,N/A,N/A,N/A,N/A,N/A,0,0,0,26,26,26,26,OC,OC,OC,OC,OC,OC,OC,OC,26,25,28,28,28,28,OC,OC,OC,OC,OC,OC,OC,OC,27,26,28,28,28,28,OC,OC,OC,OC,OC,OC,OC,OC,25,25,0,0,,,,,,
2021-10-13 13:52:41,GOOD,0d 1h 0m 5s,ACTIVE,514,0,135.4,-91.1,3778.7,3750.8,28,26,OC,OC,OC,OC,OC,OC,OC,OC,427.9,635.3,90,FALSE,-85093,115.6,100,,,,,,,,,3755.3,3755.4,3750.5,3747.2,3749.9,3748.5,3751.4,3753.2,3752.3,3746.8,3751.7,3758.5,N/A,N/A,N/A,N/A,N/A,N/A,3755.8,3754.1,3754.9,3756.8,3752.4,3754,3752.8,3754.3,3750.7,3752.7,3753.3,3762.1,N/A,N/A,N/A,N/A,N/A,N/A,3769.6,3765.6,3763.8,3764.9,3766.5,3769.2,3763,3766,3768.9,3763.1,3767.9,3774.3,N/A,N/A,N/A,N/A,N/A,N/A,0,0,0,26,26,26,26,OC,OC,OC,OC,OC,OC,OC,OC,26,25,28,28,28,28,OC,OC,OC,OC,OC,OC,OC,OC,27,27,28,28,28,28,OC,OC,OC,OC,OC,OC,OC,OC,25,25,0,0,,,,,,
2021-10-13 13:55:10,GOOD,0d 1h 2m 32s,ACTIVE,514,0,134,-90.1,3736.3,3710.9,29,26,OC,OC,OC,OC,OC,OC,OC,OC,427.9,635.3,90,FALSE,-98581,115.6,100,,,,,,,,,3717.4,3717.9,3714.6,3712.5,3717.6,3715.3,3714,3715.8,3716.9,3712.4,3719.8,3724.7,N/A,N/A,N/A,N/A,N/A,N/A,3720.7,3718.8,3719.3,3720.7,3716,3717.4,3717.5,3718.6,3714.8,3715.8,3715.8,3724.8,N/A,N/A,N/A,N/A,N/A,N/A,3734.5,3730.7,3729,3730.3,3731.8,3734.3,3728.2,3731,3733.7,3728,3732.8,3738.7,N/A,N/A,N/A,N/A,N/A,N/A,0,0,0,27,26,27,27,OC,OC,OC,OC,OC,OC,OC,OC,26,25,29,29,29,29,OC,OC,OC,OC,OC,OC,OC,OC,27,27,29,29,29,29,OC,OC,OC,OC,OC,OC,OC,OC,25,25,0,0,,,,,,
2021-10-13 13:57:38,GOOD,0d 1h 5m 2s,ACTIVE,514,0,132.8,-89.9,3702.1,3677.6,29,27,OC,OC,OC,OC,OC,OC,OC,OC,433.7,638.8,90,FALSE,-111922,115.6,100,,,,,,,,,3690.2,3690.5,3690.7,3687.9,3689.6,3687.1,3687.8,3687.2,3692.3,3687.7,3692.8,3696.9,N/A,N/A,N/A,N/A,N/A,N/A,3688.5,3687.7,3689.1,3693.7,3690.6,3692.6,3685.5,3687.1,3685.3,3688.8,3690.6,3698.5,N/A,N/A,N/A,N/A,N/A,N/A,3700.1,3696.3,3694.1,3694.8,3695.7,3698,3693.8,3696.4,3698.2,3692.2,3696.2,3702.2,N/A,N/A,N/A,N/A,N/A,N/A,0,0,0,27,27,27,27,OC,OC,OC,OC,OC,OC,OC,OC,26,25,29,29,29,29,OC,OC,OC,OC,OC,OC,OC,OC,27,27,29,29,29,29,OC,OC,OC,OC,OC,OC,OC,OC,25,25,0,0,,,,,,
2021-10-13 14:00:07,GOOD,0d 1h 7m 29s,ACTIVE,514,0,131.8,-90.5,3675.6,3652.9,30,27,OC,OC,OC,OC,OC,OC,OC,OC,433.7,638.8,90,FALSE,-125381,115.6,100,,,,,,,,,3658.5,3658.9,3659.4,3656.6,3658.6,3655.9,3656.3,3656.6,3662,3656.6,3660.6,3664.7,N/A,N/A,N/A,N/A,N/A,N/A,3659.3,3659,3660.7,3666.4,3660.9,3660.7,3656.5,3658.2,3657,3661.7,3662.2,3667.6,N/A,N/A,N/A,N/A,N/A,N/A,3675.1,3672.9,3672.4,3669.2,3667.4,3668,3669.8,3672.9,3676.8,3667,3667.9,3673,N/A,N/A,N/A,N/A,N/A,N/A,0,0,0,27,27,27,27,OC,OC,OC,OC,OC,OC,OC,OC,26,25,30,30,30,30,OC,OC,OC,OC,OC,OC,OC,OC,27,27,30,30,30,30,OC,OC,OC,OC,OC,OC,OC,OC,25,25,0,0,,,,,,
2021-10-13 14:02:36,GOOD,0d 1h 9m 59s,ACTIVE,514,0,130.6,-89.9,3641.6,3620.1,30,27,OC,OC,OC,OC,OC,OC,OC,OC,433.7,638.8,90,FALSE,-138689,115.6,100,,,,,,,,,3625.3,3626.5,3625,3623.5,3630,3627.1,3623.2,3624.7,3626.6,3622.8,3630.9,3634.2,N/A,N/A,N/A,N/A,N/A,N/A,3635.5,3633.3,3632.1,3630.3,3624.9,3625.5,3632.4,3635,3630.7,3628.6,3626.5,3634,N/A,N/A,N/A,N/A,N/A,N/A,3638.5,3635.5,3633.3,3633.7,3634.2,3636.3,3633.4,3635.9,3636.6,3631,3634,3639.6,N/A,N/A,N/A,N/A,N/A,N/A,0,0,0,28,27,28,28,OC,OC,OC,OC,OC,OC,OC,OC,26,26,30,30,30,30,OC,OC,OC,OC,OC,OC,OC,OC,28,27,30,30,30,30,OC,OC,OC,OC,OC,OC,OC,OC,25,25,0,0,,,,,,
2021-10-13 14:05:05,GOOD,0d 1h 12m 27s,ACTIVE,514,0,129.8,-91.1,3619,3597.4,30,28,OC,OC,OC,OC,OC,OC,OC,OC,439.5,642.4,90,FALSE,-152257,115.6,100,,,,,,,,,3605,3606.3,3606.8,3605.4,3612.2,3607.3,3604,3603.4,3607.7,3604.2,3614.7,3614.7,N/A,N/A,N/A,N/A,N/A,N/A,3603.4,3603.4,3603.8,3607.9,3605.3,3606.9,3600.8,3602.8,3600.5,3604,3605.4,3611.8,N/A,N/A,N/A,N/A,N/A,N/A,3613.5,3610.8,3608.3,3607.6,3607.6,3609.4,3608.9,3611.5,3611.7,3606,3608.1,3613.2,N/A,N/A,N/A,N/A,N/A,N/A,0,0,0,28,28,28,28,OC,OC,OC,OC,OC,OC,OC,OC,26,26,30,30,30,30,OC,OC,OC,OC,OC,OC,OC,OC,28,27,30,30,30,30,OC,OC,OC,OC,OC,OC,OC,OC,26,25,0,0,,,,,,
2021-10-13 14:07:34,GOOD,0d 1h 14m 57s,ACTIVE,514,0,129.3,-90.6,3598.1,3584,31,28,OC,OC,OC,OC,OC,OC,OC,OC,439.5,642.4,90,FALSE,-165567,115.6,100,,,,,,,,,3584.9,3586.7,3587.3,3585.7,3589.6,3586.3,3584.5,3584.3,3588.9,3585.3,3590.9,3593,N/A,N/A,N/A,N/A,N/A,N/A,3586.8,3587.8,3588.7,3594.3,3588.9,3588.8,3584.3,3586.9,3585.9,3590.7,3588.8,3593.3,N/A,N/A,N/A,N/A,N/A,N/A,3594.8,3594.1,3593.3,3596.6,3597.6,3596.9,3591.5,3593.7,3596.1,3594,3598.4,3599.6,N/A,N/A,N/A,N/A,N/A,N/A,0,0,0,28,28,28,28,OC,OC,OC,OC,OC,OC,OC,OC,26,26,31,30,31,31,OC,OC,OC,OC,OC,OC,OC,OC,28,28,30,30,31,31,OC,OC,OC,OC,OC,OC,OC,OC,26,25,0,0,,,,,,
2021-10-13 14:10:03,GOOD,0d 1h 17m 26s,ACTIVE,514,0,128.4,-89.9,3574,3558.7,31,28,OC,OC,OC,OC,OC,OC,OC,OC,439.5,642.4,90,FALSE,-178967,115.6,100,,,,,,,,,3565.9,3567.8,3563.7,3559.6,3563,3561.2,3565.1,3566,3564.6,3559.3,3563.4,3567.8,N/A,N/A,N/A,N/A,N/A,N/A,3567.5,3566.8,3565.3,3565.8,3562.1,3563,3564.6,3566.1,3562,3563,3562.3,3568.2,N/A,N/A,N/A,N/A,N/A,N/A,3576.9,3574.6,3571.8,3569.2,3568.8,3569.5,3573.8,3574.1,3573.2,3567.2,3568.3,3572.8,N/A,N/A,N/A,N/A,N/A,N/A,0,0,0,28,28,28,28,OC,OC,OC,OC,OC,OC,OC,OC,26,26,31,31,31,31,OC,OC,OC,OC,OC,OC,OC,OC,28,28,31,31,31,31,OC,OC,OC,OC,OC,OC,OC,OC,26,25,0,0,,,,,,
2021-10-13 14:10:43,GOOD,0d 1h 18m 6s,ACTIVE,514,0,128.4,-89.5,3575,3559.3,31,28,OC,OC,OC,OC,OC,OC,OC,OC,439.5,642.4,90,FALSE,-182619,115.6,100,,,,,,,,,3559.7,3562.1,3561.6,3559.7,3567.9,3564.2,3559.4,3560.7,3563.5,3559.9,3569.4,3570.1,N/A,N/A,N/A,N/A,N/A,N/A,3562.7,3563.8,3564,3569,3567.3,3569.2,3560.3,3562.3,3560.5,3565.2,3567.3,3571.7,N/A,N/A,N/A,N/A,N/A,N/A,3570.1,3569.7,3568.7,3571.2,3573,3574.9,3567.4,3569,3570.9,3568.9,3573.6,3575.7,N/A,N/A,N/A,N/A,N/A,N/A,0,0,0,28,28,28,28,OC,OC,OC,OC,OC,OC,OC,OC,26,26,31,31,31,31,OC,OC,OC,OC,OC,OC,OC,OC,28,28,31,31,31,31,OC,OC,OC,OC,OC,OC,OC,OC,26,25,0,0,,,,,,